PID,BlockName,ReactionTime,ReactionTimeLog,Feature,ElemNum,SpatialPattern,IsCorrect,TrialNum,TargetRegion,CenterOrPeriph,Target2CenterDis
5,Hue_12_Gridded,833.4,2.9208534961212593,Hue,12,Gridded,yes,15,8,Periphery,0.413616631
5,Hue_12_Gridded,357.4,2.5531545481696254,Hue,12,Gridded,yes,10,5,Periphery,0.311429528
5,Hue_12_Gridded,298.4,2.474798818800631,Hue,12,Gridded,yes,5,3,Center,0.311429528
5,Hue_12_Gridded,278.2,2.4443571256560275,Hue,12,Gridded,yes,12,6,Periphery,0.311429528
5,Hue_12_Gridded,219.70000000000002,2.3418300569205104,Hue,12,Gridded,yes,6,3,Center,0.499057433
5,Hue_12_Gridded,451.1,2.6542728270977105,Hue,12,Gridded,yes,16,8,Periphery,0.499057433
5,Hue_12_Gridded,272.3,2.4350476413399647,Hue,12,Gridded,yes,8,4,Center,0.311429528
5,Hue_12_Gridded,340.9,2.532627001228891,Hue,12,Gridded,yes,4,2,Center,0.311429528
5,Hue_12_Gridded,410.3,2.6131015169669127,Hue,12,Gridded,yes,7,4,Center,0.311429528
5,Hue_12_Gridded,347.5,2.540954808926133,Hue,12,Gridded,yes,1,1,Center,0.499057433
5,Hue_12_Gridded,425.09999999999997,2.628491104967123,Hue,12,Gridded,yes,11,6,Periphery,0.311429528
5,Hue_12_Gridded,402.8,2.6050894618815805,Hue,12,Gridded,yes,9,5,Periphery,0.311429528
5,Hue_12_Gridded,392.0,2.593286067020457,Hue,12,Gridded,yes,14,7,Periphery,0.499057433
5,Hue_12_Gridded,469.0,2.6711728427150834,Hue,12,Gridded,yes,2,1,Center,0.311429528
5,Hue_12_Gridded,549.0,2.739572344450092,Hue,12,Gridded,yes,13,7,Periphery,0.311429528
5,Hue_12_Gridded,611.1999999999999,2.7861833455676335,Hue,12,Gridded,yes,3,2,Center,0.13787221
5,Shape_768_Gridded,5270.8,3.721876537265178,Shape,768,Gridded,yes,16,8,Periphery,0.723549104
5,Shape_768_Gridded,8262.1,3.917090447138433,Shape,768,Gridded,yes,11,6,Periphery,0.375827528
5,Shape_768_Gridded,8465.5,3.927652614048984,Shape,768,Gridded,yes,8,4,Center,0.232850399
5,Shape_768_Gridded,4018.7,3.604085586881876,Shape,768,Gridded,yes,3,2,Center,0.267027626
5,Shape_768_Gridded,13652.0,4.1351962796066015,Shape,768,Gridded,yes,15,8,Periphery,0.710152324
5,Shape_768_Gridded,540.0,2.7323937598229686,Shape,768,Gridded,yes,1,1,Center,0.029041969
5,Shape_768_Gridded,565.0,2.7520484478194387,Shape,768,Gridded,yes,2,1,Center,0.120102879
5,Shape_768_Gridded,3780.8,3.5775837042882936,Shape,768,Gridded,yes,10,5,Periphery,0.581193923
5,Shape_768_Gridded,5515.2,3.741561266063872,Shape,768,Gridded,yes,9,5,Periphery,0.382720928
5,Shape_768_Gridded,6801.0,3.83257277484618,Shape,768,Gridded,yes,14,7,Periphery,0.588438326
5,Shape_768_Gridded,13655.6,4.135310786933785,Shape,768,Gridded,yes,12,6,Periphery,0.528866018
5,Shape_768_Gridded,11440.300000000001,4.0584374131489875,Shape,768,Gridded,yes,7,4,Center,0.176288673
5,Shape_768_Gridded,5706.7,3.756385042380897,Shape,768,Gridded,yes,6,3,Center,0.261377723
5,Shape_768_Gridded,685.8,2.8361974807789254,Shape,768,Gridded,yes,4,2,Center,0.104092424
5,Shape_768_Gridded,3370.2000000000003,3.527655674259786,Shape,768,Gridded,yes,13,7,Periphery,0.697240861
5,Shape_768_Gridded,675.0,2.829303772831025,Shape,768,Gridded,yes,5,3,Center,0.029041969
5,Hue_192_Gridded,441.90000000000003,2.6453240015622934,Hue,192,Gridded,yes,2,1,Center,0.202626762
5,Hue_192_Gridded,557.6999999999999,2.746400644491561,Hue,192,Gridded,yes,12,6,Periphery,0.693483645
5,Hue_192_Gridded,443.79999999999995,2.6471872978959894,Hue,192,Gridded,yes,15,8,Periphery,0.35867929
5,Hue_192_Gridded,589.9,2.7707783961691477,Hue,192,Gridded,yes,11,6,Periphery,0.585253896
5,Hue_192_Gridded,463.6,2.6661434272915585,Hue,192,Gridded,yes,5,3,Center,0.168330055
5,Hue_192_Gridded,462.9,2.6654871807828107,Hue,192,Gridded,yes,4,2,Center,0.231161215
5,Hue_192_Gridded,479.5,2.6807886115066824,Hue,192,Gridded,yes,14,7,Periphery,0.452563883
5,Hue_192_Gridded,536.8000000000001,2.729812507160936,Hue,192,Gridded,yes,6,3,Center,0.202626762
5,Hue_192_Gridded,497.59999999999997,2.696880371682762,Hue,192,Gridded,yes,13,7,Periphery,0.438970028
5,Hue_192_Gridded,423.0,2.6263403673750423,Hue,192,Gridded,yes,8,4,Center,0.12529399
5,Hue_192_Gridded,458.3,2.6611498572447867,Hue,192,Gridded,yes,10,5,Periphery,0.280550092
5,Hue_192_Gridded,499.40000000000003,2.698448538015329,Hue,192,Gridded,yes,16,8,Periphery,0.693483645
5,Hue_192_Gridded,548.4,2.739097446117475,Hue,192,Gridded,yes,7,4,Center,0.231161215
5,Hue_192_Gridded,652.3,2.8144473785224875,Hue,192,Gridded,yes,9,5,Periphery,0.452563883
5,Hue_192_Gridded,428.59999999999997,2.63205216670581,Hue,192,Gridded,yes,1,1,Center,0.168330055
5,Hue_192_Gridded,2933.5,3.4673860925523505,Hue,192,Gridded,yes,3,2,Center,0.12529399
5,Length_192_Gridded,651.3,2.8137810781740824,Length,192,Gridded,yes,6,3,Center,0.168330055
5,Length_192_Gridded,680.5,2.8328281295393536,Length,192,Gridded,yes,11,6,Periphery,0.280088974
5,Length_192_Gridded,1319.8000000000002,3.1205081240261037,Length,192,Gridded,yes,12,6,Periphery,0.626469953
5,Length_192_Gridded,1338.1000000000001,3.1264885707003747,Length,192,Gridded,yes,9,5,Periphery,0.517683479
5,Length_192_Gridded,914.9000000000001,2.961373627594801,Length,192,Gridded,yes,5,3,Center,0.2315337
5,Length_192_Gridded,506.1,2.704236337308788,Length,192,Gridded,yes,8,4,Center,0.231161215
5,Length_192_Gridded,1966.8000000000002,3.293760199618124,Length,192,Gridded,yes,10,5,Periphery,0.302517973
5,Length_192_Gridded,1400.6000000000001,3.146314122011973,Length,192,Gridded,yes,14,7,Periphery,0.452182898
5,Length_192_Gridded,484.9,2.6856521841155243,Length,192,Gridded,yes,7,4,Center,0.12529399
5,Length_192_Gridded,471.7,2.673665876245702,Length,192,Gridded,yes,4,2,Center,0.12529399
5,Length_192_Gridded,565.6,2.752509400788843,Length,192,Gridded,yes,1,1,Center,0.056110018
5,Length_192_Gridded,1393.5,3.144106973049323,Length,192,Gridded,yes,2,1,Center,0.2315337
5,Length_192_Gridded,719.9,2.8572721735640414,Length,192,Gridded,yes,16,8,Periphery,0.47886465
5,Length_192_Gridded,1893.8999999999999,3.277357044047016,Length,192,Gridded,yes,15,8,Periphery,0.551917433
5,Length_192_Gridded,888.0,2.948412965778601,Length,192,Gridded,yes,13,7,Periphery,0.504990166
5,Length_192_Gridded,751.4,2.875871190727366,Length,192,Gridded,yes,3,2,Center,0.12529399
5,Hue_12_Random,472.1,2.674034000431255,Hue,12,Random,yes,5,4,Center,0.27191409687691037
5,Hue_12_Random,1268.3,3.103221992452924,Hue,12,Random,yes,16,8,Periphery,0.5256914466974465
5,Hue_12_Random,528.5,2.723044991643445,Hue,12,Random,yes,1,8,Periphery,0.5842376047685275
5,Hue_12_Random,573.2,2.758306181725307,Hue,12,Random,yes,8,1,Center,0.15919362734342732
5,Hue_12_Random,567.1,2.753659647285999,Hue,12,Random,yes,7,2,Center,0.1547115515202082
5,Hue_12_Random,485.59999999999997,2.686278678067201,Hue,12,Random,yes,15,2,Center,0.1238600518732325
5,Hue_12_Random,551.3000000000001,2.741387992479269,Hue,12,Random,yes,4,3,Center,0.16077910786798064
5,Hue_12_Random,546.4,2.737510690673476,Hue,12,Random,yes,10,6,Periphery,0.3536048333611076
5,Hue_12_Random,492.59999999999997,2.6924944075030846,Hue,12,Random,yes,12,1,Center,0.25523562610501255
5,Hue_12_Random,937.4,2.9719249491841913,Hue,12,Random,yes,11,7,Periphery,0.4278885934915162
5,Hue_12_Random,447.7,2.6509870943834453,Hue,12,Random,yes,9,6,Periphery,0.38861046613488653
5,Hue_12_Random,480.8,2.681964458994683,Hue,12,Random,yes,13,7,Periphery,0.3403108595551982
5,Hue_12_Random,587.9,2.769303460189082,Hue,12,Random,yes,2,5,Periphery,0.5038905529284967
5,Hue_12_Random,835.9,2.922154325231059,Hue,12,Random,yes,6,3,Center,0.21501115607538432
5,Hue_12_Random,765.4,2.8838884578884807,Hue,12,Random,yes,14,5,Periphery,0.4856520726398047
5,Hue_12_Random,757.4,2.8793253007848074,Hue,12,Random,yes,3,4,Center,0.2914729021027182
5,Shape_48_Gridded,null,null,Shape,48,Gridded,no,11,6,Periphery,0.528879396
5,Shape_48_Gridded,1616.2,3.2084951024298376,Shape,48,Gridded,yes,9,5,Periphery,0.376554646
5,Shape_48_Gridded,870.7,2.9398685444595096,Shape,48,Gridded,yes,6,3,Center,0.233726055
5,Shape_48_Gridded,3416.7999999999997,3.5336195584187675,Shape,48,Gridded,yes,14,7,Periphery,0.376554646
5,Shape_48_Gridded,2408.0,3.381656482585787,Shape,48,Gridded,yes,10,5,Periphery,0.431939178
5,Shape_48_Gridded,620.8000000000001,2.7929517082501323,Shape,48,Gridded,yes,8,4,Center,0.236269241
5,Shape_48_Gridded,553.4,2.7430391548049333,Shape,48,Gridded,yes,5,3,Center,0.105095682
5,Shape_48_Gridded,2358.0,3.3725438007590705,Shape,48,Gridded,yes,16,8,Periphery,0.640672861
5,Shape_48_Gridded,786.5999999999999,2.895753942073728,Shape,48,Gridded,yes,7,4,Center,0.236269241
5,Shape_48_Gridded,1337.6999999999998,3.1263587270692694,Shape,48,Gridded,yes,1,1,Center,0.233726055
5,Shape_48_Gridded,684.9,2.8356271662098975,Shape,48,Gridded,yes,4,2,Center,0.236269241
5,Shape_48_Gridded,545.9000000000001,2.737113094305961,Shape,48,Gridded,yes,3,2,Center,0.236269241
5,Shape_48_Gridded,2699.8,3.431331593005826,Shape,48,Gridded,yes,15,8,Periphery,0.381286321
5,Shape_48_Gridded,894.1,2.951386094880293,Shape,48,Gridded,yes,12,6,Periphery,0.434697625
5,Shape_48_Gridded,499.09999999999997,2.698187569866122,Shape,48,Gridded,yes,2,1,Center,0.105095682
5,Shape_48_Gridded,1538.4,3.1870692712304236,Shape,48,Gridded,yes,13,7,Periphery,0.315287045
5,Length_12_Random,440.90000000000003,2.644340098826323,Length,12,Random,yes,14,3,Center,0.21333014752597795
5,Length_12_Random,510.8,2.708250888591378,Length,12,Random,yes,6,2,Center,0.06987595208876365
5,Length_12_Random,731.8,2.8643924051505887,Length,12,Random,yes,16,7,Periphery,0.39296460029341074
5,Length_12_Random,515.1,2.711891549880579,Length,12,Random,yes,13,5,Periphery,0.42898733184544285
5,Length_12_Random,476.3,2.6778805815115905,Length,12,Random,yes,1,1,Center,0.24438452081831752
5,Length_12_Random,799.4,2.902764143924086,Length,12,Random,yes,4,2,Center,0.19326421622996026
5,Length_12_Random,627.8000000000001,2.797821311364024,Length,12,Random,yes,7,4,Center,0.23434890339316633
5,Length_12_Random,669.0,2.8254261177678233,Length,12,Random,yes,2,1,Center,0.3279478531664781
5,Length_12_Random,746.1,2.8727970399895986,Length,12,Random,yes,8,8,Periphery,0.499148724473536
5,Length_12_Random,641.9,2.807467375684278,Length,12,Random,yes,12,6,Periphery,0.6150518345941879
5,Length_12_Random,782.4,2.893428841779545,Length,12,Random,yes,3,5,Periphery,0.4092691468358003
5,Length_12_Random,673.0,2.828015064223977,Length,12,Random,yes,15,7,Periphery,0.445992717271588
5,Length_12_Random,482.0,2.6830470382388496,Length,12,Random,yes,5,4,Center,0.0858538411622373
5,Length_12_Random,599.6,2.777861624176242,Length,12,Random,yes,9,3,Center,0.15894752195766151
5,Length_12_Random,648.8000000000001,2.8121108412030997,Length,12,Random,yes,11,8,Periphery,0.5603043252087377
5,Length_12_Random,888.9,2.9488529061997135,Length,12,Random,yes,10,6,Periphery,0.6847962550452309
5,Shape_12_Gridded,979.8,2.991137435120312,Shape,12,Gridded,yes,10,5,Periphery,0.311429528
5,Shape_12_Gridded,784.4,2.894537584995746,Shape,12,Gridded,yes,15,8,Periphery,0.13787221
5,Shape_12_Gridded,2396.3999999999996,3.3795593109183275,Shape,12,Gridded,yes,5,3,Center,0.499057433
5,Shape_12_Gridded,989.4,2.9953719060281623,Shape,12,Gridded,yes,9,5,Periphery,0.499057433
5,Shape_12_Gridded,1018.5,3.007961033336183,Shape,12,Gridded,yes,16,8,Periphery,0.499057433
5,Shape_12_Gridded,826.8,2.9174004679552508,Shape,12,Gridded,yes,11,6,Periphery,0.311429528
5,Shape_12_Gridded,468.0,2.670245853074124,Shape,12,Gridded,yes,13,7,Periphery,0.311429528
5,Shape_12_Gridded,1076.5,3.032014034159506,Shape,12,Gridded,yes,14,7,Periphery,0.499057433
5,Shape_12_Gridded,495.09999999999997,2.6946929263314843,Shape,12,Gridded,yes,8,4,Center,0.13787221
5,Shape_12_Gridded,827.4,2.9177155165594932,Shape,12,Gridded,yes,7,4,Center,0.311429528
5,Shape_12_Gridded,989.8000000000001,2.9955474494751373,Shape,12,Gridded,yes,3,2,Center,0.413616631
5,Shape_12_Gridded,1292.1000000000001,3.1112961264822627,Shape,12,Gridded,yes,12,6,Periphery,0.311429528
5,Shape_12_Gridded,1824.3,3.2610962581323335,Shape,12,Gridded,yes,2,1,Center,0.499057433
5,Shape_12_Gridded,658.1,2.818291890799996,Shape,12,Gridded,yes,4,2,Center,0.413616631
5,Shape_12_Gridded,732.9,2.865044721693099,Shape,12,Gridded,yes,6,3,Center,0.13787221
5,Shape_12_Gridded,2019.6000000000001,3.305265362023449,Shape,12,Gridded,yes,1,1,Center,0.311429528
5,Length_768_Gridded,1648.5,3.217088951479172,Length,768,Gridded,yes,6,3,Center,0.233775017
5,Length_768_Gridded,816.2,2.9117965904372523,Length,768,Gridded,yes,2,1,Center,0.212141749
5,Length_768_Gridded,1534.8999999999999,3.1860800860914518,Length,768,Gridded,yes,14,7,Periphery,0.407252836
5,Length_768_Gridded,2036.9,3.3089697081782496,Length,768,Gridded,yes,12,6,Periphery,0.594956479
5,Length_768_Gridded,2903.3,3.4628919140999983,Length,768,Gridded,yes,11,6,Periphery,0.594956479
5,Length_768_Gridded,1673.6,3.22365166718718,Length,768,Gridded,yes,3,2,Center,0.232850399
5,Length_768_Gridded,705.3000000000001,2.848373883844602,Length,768,Gridded,yes,9,5,Periphery,0.438747836
5,Length_768_Gridded,752.5,2.876506504265881,Length,768,Gridded,yes,8,4,Center,0.104092424
5,Length_768_Gridded,1006.1999999999999,3.002684312989729,Length,768,Gridded,yes,10,5,Periphery,0.438747836
5,Length_768_Gridded,1474.6,3.16867422956708,Length,768,Gridded,yes,16,8,Periphery,0.381252592
5,Length_768_Gridded,763.8000000000001,2.882979654037299,Length,768,Gridded,yes,1,1,Center,0.233775017
5,Length_768_Gridded,4402.099999999999,3.643659903949929,Length,768,Gridded,yes,15,8,Periphery,0.687219014
5,Length_768_Gridded,1062.7,3.026410680578774,Length,768,Gridded,yes,7,4,Center,0.144315729
5,Length_768_Gridded,990.1,2.9956790605116224,Length,768,Gridded,yes,13,7,Periphery,0.315985639
5,Length_768_Gridded,1421.6,3.152777414797245,Length,768,Gridded,yes,4,2,Center,0.176288673
5,Length_768_Gridded,3608.1,3.5572785656898467,Length,768,Gridded,yes,5,3,Center,0.261377723
5,Shape_192_Gridded,654.6999999999999,2.816042340921997,Shape,192,Gridded,yes,7,4,Center,0.201987831
5,Shape_192_Gridded,2081.6,3.318397279217511,Shape,192,Gridded,yes,15,8,Periphery,0.516433522
5,Shape_192_Gridded,974.1999999999999,2.988648125235751,Shape,192,Gridded,yes,2,1,Center,0.2315337
5,Shape_192_Gridded,2620.1,3.4183178671286787,Shape,192,Gridded,yes,13,7,Periphery,0.280550092
5,Shape_192_Gridded,1897.7,3.2782275575947426,Shape,192,Gridded,yes,16,8,Periphery,0.47886465
5,Shape_192_Gridded,2095.5,3.321287665169863,Shape,192,Gridded,yes,11,6,Periphery,0.408117757
5,Shape_192_Gridded,1804.3,3.256308749121934,Shape,192,Gridded,yes,9,5,Periphery,0.452563883
5,Shape_192_Gridded,818.0,2.912753303671323,Shape,192,Gridded,yes,6,3,Center,0.056110018
5,Shape_192_Gridded,649.7,2.8127128667653687,Shape,192,Gridded,yes,1,1,Center,0.125637405
5,Shape_192_Gridded,699.1,2.8445393021290077,Shape,192,Gridded,yes,3,2,Center,0.12529399
5,Shape_192_Gridded,725.1,2.860397905127313,Shape,192,Gridded,yes,4,2,Center,0.231161215
5,Shape_192_Gridded,5705.099999999999,3.7562632612113007,Shape,192,Gridded,yes,12,6,Periphery,0.47886465
5,Shape_192_Gridded,707.7,2.849849195605258,Shape,192,Gridded,yes,5,3,Center,0.125637405
5,Shape_192_Gridded,4738.5,3.6756408849608304,Shape,192,Gridded,yes,8,4,Center,0.201987831
5,Shape_192_Gridded,2461.2,3.391146906415991,Shape,192,Gridded,yes,10,5,Periphery,0.517683479
5,Shape_192_Gridded,2108.5,3.3239736053508824,Shape,192,Gridded,yes,14,7,Periphery,0.453039662
5,Length_192_Random,694.4,2.8416097121684354,Length,192,Random,yes,10,2,Center,0.20876920902548038
5,Length_192_Random,1938.1,3.287376181552599,Length,192,Random,yes,2,7,Periphery,0.38926349119618986
5,Length_192_Random,7888.099999999999,3.896972407659943,Length,192,Random,yes,3,1,Center,0.2666393975894183
5,Length_192_Random,588.3000000000001,2.7695988483874467,Length,192,Random,yes,12,2,Center,0.10201519317352092
5,Length_192_Random,1797.6000000000001,3.2546930594110726,Length,192,Random,yes,7,5,Periphery,0.4572588204527786
5,Length_192_Random,2895.5,3.4617235692693926,Length,192,Random,yes,11,4,Center,0.20761138312732838
5,Length_192_Random,2338.5,3.3689373742445228,Length,192,Random,yes,8,5,Periphery,0.41665829464383175
5,Length_192_Random,553.1,2.7428036584691657,Length,192,Random,yes,14,1,Center,0.13415930160458758
5,Length_192_Random,618.6,2.79140991566716,Length,192,Random,yes,9,3,Center,0.00997435588242676
5,Length_192_Random,8367.2,3.9225801499894515,Length,192,Random,yes,16,8,Periphery,0.5280640390860657
5,Length_192_Random,1373.6,3.13786028215286,Length,192,Random,yes,6,6,Periphery,0.6985904578219351
5,Length_192_Random,2093.1000000000004,3.3207899776988064,Length,192,Random,yes,1,7,Periphery,0.5448225596251761
5,Length_192_Random,2084.5,3.3190018994623163,Length,192,Random,yes,4,8,Periphery,0.302299220326139
5,Length_192_Random,2547.6,3.4061312402136235,Length,192,Random,yes,5,6,Periphery,0.726340810911742
5,Length_192_Random,723.8,2.8596185787721806,Length,192,Random,yes,15,4,Center,0.10872112622361935
5,Length_192_Random,1136.1000000000001,3.0554165598404888,Length,192,Random,yes,13,3,Center,0.19531077828264756
5,Length_768_Random,12988.699999999999,4.11356568601689,Length,768,Random,yes,1,1,Center,0.15093980517626263
5,Length_768_Random,4080.2,3.6106814515133006,Length,768,Random,yes,6,7,Periphery,0.5109149447092456
5,Length_768_Random,6881.8,3.8377020469308687,Length,768,Random,yes,3,1,Center,0.19151950939953827
5,Length_768_Random,23622.2,4.373320342192275,Length,768,Random,yes,13,3,Center,0.19662379628232665
5,Length_768_Random,14210.4,4.152606302793607,Length,768,Random,yes,16,7,Periphery,0.46793488935688715
5,Length_768_Random,730.5,2.8636202202703154,Length,768,Random,yes,10,2,Center,0.1524392494087626
5,Length_768_Random,16053.899999999998,4.2055805534219015,Length,768,Random,yes,5,6,Periphery,0.5695695141878472
5,Length_768_Random,11469.6,4.0595482722324,Length,768,Random,yes,11,8,Periphery,0.5977528423858308
5,Length_768_Random,3151.5,3.498517311461634,Length,768,Random,yes,4,5,Periphery,0.43398187148378664
5,Length_768_Random,5427.7,3.734615835313205,Length,768,Random,yes,7,6,Periphery,0.6993270531878681
5,Length_768_Random,596.9,2.7759015788916743,Length,768,Random,yes,2,4,Center,0.11158587313349465
5,Length_768_Random,4848.099999999999,3.6855715692853512,Length,768,Random,yes,15,2,Center,0.020086799884765718
5,Length_768_Random,5361.7,3.729302510506712,Length,768,Random,yes,8,8,Periphery,0.41959169888871667
5,Length_768_Random,2172.6,3.336979775200655,Length,768,Random,yes,14,3,Center,0.16740461806446005
5,Length_768_Random,41776.299999999996,4.620929973204376,Length,768,Random,yes,9,4,Center,0.2540068512897407
5,Length_768_Random,2159.6000000000004,3.334373318799205,Length,768,Random,yes,12,5,Periphery,0.6245656049518726
5,Length_12_Gridded,442.5,2.6459132750338443,Length,12,Gridded,yes,10,5,Periphery,0.311429528
5,Length_12_Gridded,481.1,2.6822353569025643,Length,12,Gridded,yes,4,2,Center,0.413616631
5,Length_12_Gridded,495.3,2.694868327982456,Length,12,Gridded,yes,12,6,Periphery,0.499057433
5,Length_12_Gridded,455.29999999999995,2.6582976503081897,Length,12,Gridded,yes,7,4,Center,0.13787221
5,Length_12_Gridded,656.5999999999999,2.817300878393321,Length,12,Gridded,yes,13,7,Periphery,0.13787221
5,Length_12_Gridded,552.1,2.7420177471401384,Length,12,Gridded,yes,2,1,Center,0.413616631
5,Length_12_Gridded,666.8,2.8239955911559678,Length,12,Gridded,yes,14,7,Periphery,0.499057433
5,Length_12_Gridded,691.8,2.839980557678343,Length,12,Gridded,yes,15,8,Periphery,0.499057433
5,Length_12_Gridded,494.3,2.693990610460777,Length,12,Gridded,yes,3,2,Center,0.13787221
5,Length_12_Gridded,841.0999999999999,2.924847632975537,Length,12,Gridded,yes,9,5,Periphery,0.499057433
5,Length_12_Gridded,726.6,2.861295393526696,Length,12,Gridded,yes,16,8,Periphery,0.311429528
5,Length_12_Gridded,735.6,2.8666417205660397,Length,12,Gridded,yes,8,4,Center,0.311429528
5,Length_12_Gridded,1167.5,3.0672568892381498,Length,12,Gridded,yes,11,6,Periphery,0.311429528
5,Length_12_Gridded,833.5,2.920905604164024,Length,12,Gridded,yes,5,3,Center,0.499057433
5,Length_12_Gridded,630.8000000000001,2.799891684656865,Length,12,Gridded,yes,1,1,Center,0.311429528
5,Length_12_Gridded,745.6,2.872505899345925,Length,12,Gridded,yes,6,3,Center,0.413616631
5,Shape_48_Random,1573.7,3.196921944819459,Shape,48,Random,yes,1,5,Periphery,0.35916477641340244
5,Shape_48_Random,1305.1999999999998,3.1156770651158374,Shape,48,Random,yes,8,6,Periphery,0.5717423842276053
5,Shape_48_Random,865.5,2.9372670722114127,Shape,48,Random,yes,11,7,Periphery,0.3601225230561919
5,Shape_48_Random,588.3000000000001,2.7695988483874467,Shape,48,Random,yes,2,4,Center,0.22682123370019042
5,Shape_48_Random,3466.8,3.5399287878918217,Shape,48,Random,yes,10,6,Periphery,0.4318587427913497
5,Shape_48_Random,519.4,2.715501945293284,Shape,48,Random,yes,5,4,Center,0.10355336853647153
5,Shape_48_Random,1642.4,3.2154789363625356,Shape,48,Random,yes,6,5,Periphery,0.4759303662195809
5,Shape_48_Random,1049.8,3.021106568432122,Shape,48,Random,yes,13,3,Center,0.24303439919154515
5,Shape_48_Random,990.8000000000001,2.9959859979137993,Shape,48,Random,yes,12,8,Periphery,0.48462895694216135
5,Shape_48_Random,2158.4,3.334131932327829,Shape,48,Random,yes,9,8,Periphery,0.4466580516043555
5,Shape_48_Random,542.1,2.7340794072805945,Shape,48,Random,yes,3,2,Center,0.14644078541112276
5,Shape_48_Random,688.5,2.8379039445929424,Shape,48,Random,yes,14,1,Center,0.18810818595237255
5,Shape_48_Random,1765.0,3.2467447097238415,Shape,48,Random,yes,16,7,Periphery,0.33009461677197194
5,Shape_48_Random,546.8,2.7378285058957847,Shape,48,Random,yes,15,2,Center,0.12930716900388517
5,Shape_48_Random,859.3,2.934144811792477,Shape,48,Random,yes,4,3,Center,0.17083789990505444
5,Shape_48_Random,875.1,2.942057683841395,Shape,48,Random,yes,7,1,Center,0.1877092458384138
5,Shape_768_Random,895.9,2.9522595365908204,Shape,768,Random,yes,1,1,Center,0.22589931868259944
5,Shape_768_Random,2591.2000000000003,3.4135009350021206,Shape,768,Random,yes,10,1,Center,0.2289243916308905
5,Shape_768_Random,562.3000000000001,2.749968083509403,Shape,768,Random,yes,11,2,Center,0.16707104021024993
5,Shape_768_Random,2222.5,3.346841769642251,Shape,768,Random,yes,5,7,Periphery,0.48033561482884674
5,Shape_768_Random,2603.5,3.415557582011711,Shape,768,Random,yes,13,3,Center,0.23266512335064468
5,Shape_768_Random,963.8,2.9839869219651898,Shape,768,Random,yes,14,4,Center,0.1578487746099684
5,Shape_768_Random,5949.3,3.7744658692543567,Shape,768,Random,yes,8,5,Periphery,0.38695593438284553
5,Shape_768_Random,902.3,2.95535095736766,Shape,768,Random,yes,6,3,Center,0.04251904765000064
5,Shape_768_Random,2362.6,3.3733901996274698,Shape,768,Random,yes,3,8,Periphery,0.545490647061175
5,Shape_768_Random,3622.0,3.5589484459780394,Shape,768,Random,yes,2,7,Periphery,0.5750878485043665
5,Shape_768_Random,5278.1,3.7224776141971754,Shape,768,Random,yes,4,6,Periphery,0.6324682609873481
5,Shape_768_Random,7191.6,3.8568255237441096,Shape,768,Random,yes,15,4,Center,0.24001318529167254
5,Shape_768_Random,2687.6000000000004,3.4293646324176974,Shape,768,Random,yes,7,8,Periphery,0.609330001160519
5,Shape_768_Random,5414.900000000001,3.733590440675244,Shape,768,Random,yes,16,6,Periphery,0.5299736898965839
5,Shape_768_Random,5564.0,3.7453871213200087,Shape,768,Random,yes,12,2,Center,0.24391327554983352
5,Shape_768_Random,12291.7,4.089611952012707,Shape,768,Random,yes,9,5,Periphery,0.4717277048601035
5,Hue_48_Gridded,null,null,Hue,48,Gridded,no,14,7,Periphery,0.315287045
5,Hue_48_Gridded,498.0,2.6972293427597176,Hue,48,Gridded,yes,16,8,Periphery,0.381286321
5,Hue_48_Gridded,547.5,2.738384123512156,Hue,48,Gridded,yes,9,5,Periphery,0.525478409
5,Hue_48_Gridded,428.8,2.6322547766847135,Hue,48,Gridded,yes,15,8,Periphery,0.640672861
5,Hue_48_Gridded,471.1,2.673113104238234,Hue,48,Gridded,yes,3,2,Center,0.236269241
5,Hue_48_Gridded,492.3,2.6922298357727557,Hue,48,Gridded,yes,1,1,Center,0.233726055
5,Hue_48_Gridded,180.60000000000002,2.256717745977487,Hue,48,Gridded,yes,7,4,Center,0.236269241
5,Hue_48_Gridded,441.3,2.6447339274471924,Hue,48,Gridded,yes,4,2,Center,0.236269241
5,Hue_48_Gridded,623.6,2.794906106516804,Hue,48,Gridded,yes,10,5,Periphery,0.315287045
5,Hue_48_Gridded,470.2,2.6722826247889206,Hue,48,Gridded,yes,6,3,Center,0.233726055
5,Hue_48_Gridded,447.5,2.650793039651931,Hue,48,Gridded,yes,5,3,Center,0.233726055
5,Hue_48_Gridded,705.0,2.848189116991399,Hue,48,Gridded,yes,2,1,Center,0.233726055
5,Hue_48_Gridded,624.0,2.795184589682424,Hue,48,Gridded,yes,13,7,Periphery,0.315287045
5,Hue_48_Gridded,567.5,2.7539658658651605,Hue,48,Gridded,yes,8,4,Center,0.236269241
5,Hue_48_Gridded,419.9,2.6231458746379395,Hue,48,Gridded,yes,12,6,Periphery,0.528879396
5,Hue_48_Gridded,456.7,2.6596310116070008,Hue,48,Gridded,yes,11,6,Periphery,0.381286321
5,Length_48_Gridded,761.0,2.8813846567705728,Length,48,Gridded,yes,13,7,Periphery,0.376554646
5,Length_48_Gridded,908.0,2.958085848521085,Length,48,Gridded,yes,15,8,Periphery,0.528879396
5,Length_48_Gridded,692.6,2.840482487213442,Length,48,Gridded,yes,2,1,Center,0.105095682
5,Length_48_Gridded,759.6,2.88058495606498,Length,48,Gridded,yes,1,1,Center,0.105095682
5,Length_48_Gridded,879.5,2.94423584379348,Length,48,Gridded,yes,11,6,Periphery,0.568591401
5,Length_48_Gridded,546.5,2.7375901662857216,Length,48,Gridded,yes,6,3,Center,0.233726055
5,Length_48_Gridded,1408.0,3.1486026548060932,Length,48,Gridded,yes,14,7,Periphery,0.431939178
5,Length_48_Gridded,633.8000000000001,2.801952234854282,Length,48,Gridded,yes,5,3,Center,0.105095682
5,Length_48_Gridded,null,null,Length,48,Gridded,no,9,5,Periphery,0.525478409
5,Length_48_Gridded,1235.4,3.091807597001675,Length,48,Gridded,yes,10,5,Periphery,0.431939178
5,Length_48_Gridded,989.6,2.9954596866210643,Length,48,Gridded,yes,16,8,Periphery,0.568591401
5,Length_48_Gridded,749.0,2.8744818176994666,Length,48,Gridded,yes,7,4,Center,0.236269241
5,Length_48_Gridded,443.7,2.647089428716555,Length,48,Gridded,yes,3,2,Center,0.236269241
5,Length_48_Gridded,590.1999999999999,2.7709992051639407,Length,48,Gridded,yes,4,2,Center,0.236269241
5,Length_48_Gridded,770.3,2.8866598978612026,Length,48,Gridded,yes,12,6,Periphery,0.528879396
5,Length_48_Gridded,989.3,2.9953280090774097,Length,48,Gridded,yes,8,4,Center,0.236269241
5,Hue_192_Random,442.3,2.6457169393696036,Hue,192,Random,yes,4,6,Periphery,0.6998779869380178
5,Hue_192_Random,479.3,2.680607428991788,Hue,192,Random,yes,13,1,Center,0.26563949582500757
5,Hue_192_Random,570.0,2.7558748556724915,Hue,192,Random,yes,6,1,Center,0.24221186977803882
5,Hue_192_Random,464.8,2.6672661193822744,Hue,192,Random,yes,5,2,Center,0.21865749108666271
5,Hue_192_Random,405.9,2.6084190513172856,Hue,192,Random,yes,9,8,Periphery,0.5533475173225693
5,Hue_192_Random,456.3,2.659250468772661,Hue,192,Random,yes,7,7,Periphery,0.45617588764993516
5,Hue_192_Random,457.8,2.660675788338524,Hue,192,Random,yes,12,3,Center,0.06621208467248708
5,Hue_192_Random,541.1,2.733277533932582,Hue,192,Random,yes,15,4,Center,0.2416110875310049
5,Hue_192_Random,560.5,2.748575616930992,Hue,192,Random,yes,11,3,Center,0.2060459847691097
5,Hue_192_Random,456.2,2.6591552809406296,Hue,192,Random,yes,8,7,Periphery,0.3434997907784847
5,Hue_192_Random,459.0,2.661812685537261,Hue,192,Random,yes,10,4,Center,0.24948673522456136
5,Hue_192_Random,422.70000000000005,2.626032247829019,Hue,192,Random,yes,14,2,Center,0.20504600103737733
5,Hue_192_Random,538.5,2.7311857076340003,Hue,192,Random,yes,16,5,Periphery,0.5113441984945444
5,Hue_192_Random,490.70000000000005,2.6908160579809155,Hue,192,Random,yes,1,5,Periphery,0.4948364125186796
5,Hue_192_Random,623.7,2.794975744051132,Hue,192,Random,yes,2,6,Periphery,0.6865074856961952
5,Hue_192_Random,705.5,2.8484970180903666,Hue,192,Random,yes,3,8,Periphery,0.6823390569744362
5,Shape_12_Random,993.9,2.9973426906016223,Shape,12,Random,yes,12,7,Periphery,0.4464135302329824
5,Shape_12_Random,682.4,2.8340390181594666,Shape,12,Random,yes,16,1,Center,0.25040499337310285
5,Shape_12_Random,528.9000000000001,2.7233735670189847,Shape,12,Random,yes,14,4,Center,0.12987800694130694
5,Shape_12_Random,1790.4,3.252950069184275,Shape,12,Random,yes,2,6,Periphery,0.48370170786947075
5,Shape_12_Random,618.6,2.79140991566716,Shape,12,Random,yes,6,3,Center,0.13424588531299889
5,Shape_12_Random,514.4,2.7113009599161657,Shape,12,Random,yes,10,1,Center,0.2915394149873231
5,Shape_12_Random,933.2,2.969974730121715,Shape,12,Random,yes,1,5,Periphery,0.5768179179315844
5,Shape_12_Random,660.5999999999999,2.8199385693553953,Shape,12,Random,yes,9,8,Periphery,0.5766464765098581
5,Shape_12_Random,550.0,2.7403626894942437,Shape,12,Random,yes,3,3,Center,0.248766709202736
5,Shape_12_Random,558.2,2.7467898321526123,Shape,12,Random,yes,4,2,Center,0.25476817543193553
5,Shape_12_Random,794.6999999999999,2.9002032130168933,Shape,12,Random,yes,13,7,Periphery,0.32856042318556794
5,Shape_12_Random,1156.7,3.0632207355819947,Shape,12,Random,yes,5,4,Center,0.2545787016131932
5,Shape_12_Random,1737.0,3.2397998184470986,Shape,12,Random,yes,8,5,Periphery,0.4614225252119441
5,Shape_12_Random,1298.7,3.1135088405328193,Shape,12,Random,yes,11,8,Periphery,0.42909410267200426
5,Shape_12_Random,669.5,2.8257505813480277,Shape,12,Random,yes,15,6,Periphery,0.4296309844802632
5,Shape_12_Random,882.5,2.9457147140598603,Shape,12,Random,yes,7,2,Center,0.24834078744766436
5,Shape_192_Random,3605.9,3.5570136785565483,Shape,192,Random,yes,7,2,Center,0.2623602986900605
5,Shape_192_Random,1828.4,3.2620712126172933,Shape,192,Random,yes,14,3,Center,0.20739067288566174
5,Shape_192_Random,639.0,2.8055008581584002,Shape,192,Random,yes,12,4,Center,0.11792962850936155
5,Shape_192_Random,2258.5,3.353820094897413,Shape,192,Random,yes,6,5,Periphery,0.3157409401001144
5,Shape_192_Random,1725.1000000000001,3.2368142751712723,Shape,192,Random,yes,8,6,Periphery,0.5815784639067708
5,Shape_192_Random,1566.7,3.194985843425881,Shape,192,Random,yes,15,1,Center,0.261582801103808
5,Shape_192_Random,4822.6,3.6832812418105654,Shape,192,Random,yes,10,8,Periphery,0.5182503996604114
5,Shape_192_Random,804.5,2.9055260484350485,Shape,192,Random,yes,4,7,Periphery,0.4471149982108483
5,Shape_192_Random,2297.4,3.3612366167313312,Shape,192,Random,yes,2,7,Periphery,0.46667156057234116
5,Shape_192_Random,657.9000000000001,2.8181598863971855,Shape,192,Random,yes,11,1,Center,0.1344570781735875
5,Shape_192_Random,2499.5,3.397853141088609,Shape,192,Random,yes,13,4,Center,0.26205074476368917
5,Shape_192_Random,798.6999999999999,2.9023836844324715,Shape,192,Random,yes,5,2,Center,0.24938473628530844
5,Shape_192_Random,3846.7,3.58508831746747,Shape,192,Random,yes,9,6,Periphery,0.4066316562780101
5,Shape_192_Random,3505.5,3.5447499714479083,Shape,192,Random,yes,3,5,Periphery,0.5054465227239521
5,Shape_192_Random,4880.200000000001,3.6884376205921643,Shape,192,Random,yes,1,8,Periphery,0.40682588060928293
5,Shape_192_Random,2048.6,3.3114571683810303,Shape,192,Random,yes,16,3,Center,0.23246252053496202
5,Length_48_Random,1304.3,3.115377494279117,Length,48,Random,yes,9,6,Periphery,0.4229169953503825
5,Length_48_Random,609.8,2.785187420029362,Length,48,Random,yes,4,1,Center,0.15785904246480728
5,Length_48_Random,1340.3,3.127202017590353,Length,48,Random,yes,6,6,Periphery,0.5737865815946075
5,Length_48_Random,509.29999999999995,2.7069736761761782,Length,48,Random,yes,15,4,Center,0.155132279443074
5,Length_48_Random,670.6999999999999,2.8265283063406517,Length,48,Random,yes,13,4,Center,0.1990350950498069
5,Length_48_Random,2060.5,3.313972618860607,Length,48,Random,yes,10,5,Periphery,0.6829877289186748
5,Length_48_Random,1113.0,3.0464951643347082,Length,48,Random,yes,12,3,Center,0.17793985519851588
5,Length_48_Random,1384.0,3.141136090120739,Length,48,Random,yes,14,5,Periphery,0.5574763855710713
5,Length_48_Random,2630.5,3.420038306133178,Length,48,Random,yes,8,7,Periphery,0.36062881216978976
5,Length_48_Random,595.6,2.7749546890801384,Length,48,Random,yes,5,2,Center,0.19090741443353942
5,Length_48_Random,720.4000000000001,2.857573704147496,Length,48,Random,yes,11,1,Center,0.195102412407092
5,Length_48_Random,858.5,2.9337402994969355,Length,48,Random,yes,16,2,Center,0.19196470041914615
5,Length_48_Random,1389.8999999999999,3.1429835549228176,Length,48,Random,yes,7,7,Periphery,0.525780532509231
5,Length_48_Random,884.6,2.946746935033585,Length,48,Random,yes,1,8,Periphery,0.40222398167518675
5,Length_48_Random,1024.8999999999999,3.0106814931314436,Length,48,Random,yes,3,8,Periphery,0.3115173970551363
5,Length_48_Random,2743.6,3.438320794186449,Length,48,Random,yes,2,3,Center,0.18441224197930262
5,Hue_768_Random,924.9000000000001,2.9660947794461707,Hue,768,Random,yes,12,4,Center,0.18846956015138255
5,Hue_768_Random,770.0,2.886490725172482,Hue,768,Random,yes,2,5,Periphery,0.43109610333164766
5,Hue_768_Random,963.6,2.983896791326306,Hue,768,Random,yes,16,7,Periphery,0.5536239592655401
5,Hue_768_Random,712.5,2.8527848686805477,Hue,768,Random,yes,1,5,Periphery,0.56845287292339
5,Hue_768_Random,1446.1,3.1601983261165687,Hue,768,Random,yes,5,6,Periphery,0.5719365997048286
5,Hue_768_Random,637.7,2.804616416987255,Hue,768,Random,yes,7,8,Periphery,0.5589330157954574
5,Hue_768_Random,2174.7000000000003,3.337399354471897,Hue,768,Random,yes,6,8,Periphery,0.45657952893170606
5,Hue_768_Random,521.5,2.7172543127625497,Hue,768,Random,yes,9,1,Center,0.25333166534560103
5,Hue_768_Random,759.4,2.8804705928037784,Hue,768,Random,yes,8,2,Center,0.13436762003652925
5,Hue_768_Random,762.9,2.882467614895371,Hue,768,Random,yes,3,7,Periphery,0.37737338485820887
5,Hue_768_Random,543.1,2.7348798027926278,Hue,768,Random,yes,4,6,Periphery,0.34678981778489454
5,Hue_768_Random,575.9,2.7603470785299065,Hue,768,Random,yes,14,3,Center,0.10001345718329056
5,Hue_768_Random,999.1999999999999,2.999652425366079,Hue,768,Random,yes,15,4,Center,0.11787192650152489
5,Hue_768_Random,521.4,2.71717102683231,Hue,768,Random,yes,10,3,Center,0.23047993091693164
5,Hue_768_Random,508.2,2.7060346607143506,Hue,768,Random,yes,13,2,Center,0.17673681759148183
5,Hue_768_Random,723.8,2.8596185787721806,Hue,768,Random,yes,11,1,Center,0.27259113091445447
5,Hue_48_Random,504.4,2.702775077901044,Hue,48,Random,yes,8,5,Periphery,0.4448325389251278
5,Hue_48_Random,478.6,2.6799726942774185,Hue,48,Random,yes,5,1,Center,0.2257490447937698
5,Hue_48_Random,719.0999999999999,2.8567892887533164,Hue,48,Random,yes,1,8,Periphery,0.28603160799057714
5,Hue_48_Random,774.2,2.8888531669829365,Hue,48,Random,yes,14,4,Center,0.2730861566449883
5,Hue_48_Random,517.4,2.7138264243805246,Hue,48,Random,yes,13,2,Center,0.25228111013961313
5,Hue_48_Random,486.4,2.6869935662646784,Hue,48,Random,yes,11,3,Center,0.2107737312478814
5,Hue_48_Random,576.9,2.7611005389581424,Hue,48,Random,yes,9,2,Center,0.18840833962371725
5,Hue_48_Random,587.5,2.7690078709437738,Hue,48,Random,yes,12,6,Periphery,0.4755770044817446
5,Hue_48_Random,641.0,2.8068580295188172,Hue,48,Random,yes,2,8,Periphery,0.627586892023507
5,Hue_48_Random,761.1999999999999,2.881498779614983,Hue,48,Random,yes,15,4,Center,0.18843608433178524
5,Hue_48_Random,870.1999999999999,2.939619078956698,Hue,48,Random,yes,4,1,Center,0.19274400665608235
5,Hue_48_Random,684.8,2.835563751669097,Hue,48,Random,yes,16,7,Periphery,0.41468844891265355
5,Hue_48_Random,737.9,2.867997510344951,Hue,48,Random,yes,7,6,Periphery,0.5991507647411672
5,Hue_48_Random,617.0,2.7902851640332416,Hue,48,Random,yes,3,5,Periphery,0.42257997817374
5,Hue_48_Random,1102.5,3.042378598139876,Hue,48,Random,yes,6,3,Center,0.153830450583277
5,Hue_48_Random,760.9,2.8813275841005512,Hue,48,Random,yes,10,7,Periphery,0.5745117035633112
5,Hue_768_Gridded,2078.2,3.317687340486183,Hue,768,Gridded,yes,16,8,Periphery,0.576528246
5,Hue_768_Gridded,1131.8999999999999,3.053808059920658,Hue,768,Gridded,yes,15,8,Periphery,0.528866018
5,Hue_768_Gridded,594.8,2.7743709598499167,Hue,768,Gridded,yes,3,2,Center,0.267027626
5,Hue_768_Gridded,582.7,2.76544501809015,Hue,768,Gridded,yes,8,4,Center,0.064606771
5,Hue_768_Gridded,3272.5,3.5148796552227934,Hue,768,Gridded,yes,5,3,Center,0.105328546
5,Hue_768_Gridded,1146.2,3.059260404121731,Hue,768,Gridded,yes,7,4,Center,0.26605641
5,Hue_768_Gridded,684.8,2.835563751669097,Hue,768,Gridded,yes,4,2,Center,0.267027626
5,Hue_768_Gridded,471.6,2.6735737964230517,Hue,768,Gridded,yes,6,3,Center,0.195813492
5,Hue_768_Gridded,56.800000000000004,1.754348335711019,Hue,768,Gridded,yes,14,7,Periphery,0.493713477
5,Hue_768_Gridded,2072.9,3.3165783515411706,Hue,768,Gridded,yes,1,1,Center,0.228247167
5,Hue_768_Gridded,1353.5,3.131458260106525,Hue,768,Gridded,yes,11,6,Periphery,0.649854591
5,Hue_768_Gridded,1026.5,3.0113589537066106,Hue,768,Gridded,yes,12,6,Periphery,0.586234564
5,Hue_768_Gridded,1386.6000000000001,3.141951195862753,Hue,768,Gridded,yes,10,5,Periphery,0.325429089
5,Hue_768_Gridded,686.0,2.8363241157067516,Hue,768,Gridded,yes,13,7,Periphery,0.791220559
5,Hue_768_Gridded,812.3000000000001,2.9097164532343447,Hue,768,Gridded,yes,9,5,Periphery,0.791220559
5,Hue_768_Gridded,1021.3000000000001,3.0091533319077084,Hue,768,Gridded,yes,2,1,Center,0.105328546
