PID,BlockName,ReactionTime,ReactionTimeLog,Feature,ElemNum,SpatialPattern,IsCorrect,TrialNum,TargetRegion,CenterOrPeriph,Target2CenterDis
6,Length_48_Gridded,1407.0,3.1482940974347455,Length,48,Gridded,yes,9,5,Periphery,0.525478409
6,Length_48_Gridded,1054.0,3.022840610876528,Length,48,Gridded,yes,11,6,Periphery,0.568591401
6,Length_48_Gridded,972.0,2.9876662649262746,Length,48,Gridded,yes,15,8,Periphery,0.528879396
6,Length_48_Gridded,509.0,2.7067177823367587,Length,48,Gridded,yes,1,1,Center,0.105095682
6,Length_48_Gridded,549.0,2.739572344450092,Length,48,Gridded,yes,5,3,Center,0.105095682
6,Length_48_Gridded,668.0,2.824776462475546,Length,48,Gridded,yes,6,3,Center,0.233726055
6,Length_48_Gridded,412.0,2.6148972160331345,Length,48,Gridded,yes,2,1,Center,0.105095682
6,Length_48_Gridded,553.0,2.7427251313046983,Length,48,Gridded,yes,3,2,Center,0.236269241
6,Length_48_Gridded,1997.0,3.3003780648707024,Length,48,Gridded,yes,4,2,Center,0.236269241
6,Length_48_Gridded,761.0,2.8813846567705728,Length,48,Gridded,yes,14,7,Periphery,0.431939178
6,Length_48_Gridded,1436.0,3.1571544399062814,Length,48,Gridded,yes,10,5,Periphery,0.431939178
6,Length_48_Gridded,886.0,2.9474337218870508,Length,48,Gridded,yes,13,7,Periphery,0.376554646
6,Length_48_Gridded,1398.0,3.1455071714096627,Length,48,Gridded,yes,8,4,Center,0.236269241
6,Length_48_Gridded,1617.0,3.208710019906401,Length,48,Gridded,yes,12,6,Periphery,0.528879396
6,Length_48_Gridded,824.0,2.9159272116971158,Length,48,Gridded,yes,16,8,Periphery,0.568591401
6,Length_48_Gridded,685.0,2.8356905714924254,Length,48,Gridded,yes,7,4,Center,0.236269241
6,Hue_48_Gridded,405.0,2.6074550232146687,Hue,48,Gridded,yes,3,2,Center,0.236269241
6,Hue_48_Gridded,493.0,2.69284691927723,Hue,48,Gridded,yes,16,8,Periphery,0.381286321
6,Hue_48_Gridded,582.0,2.7649229846498886,Hue,48,Gridded,yes,4,2,Center,0.236269241
6,Hue_48_Gridded,1894.0,3.2773799746672547,Hue,48,Gridded,yes,9,5,Periphery,0.525478409
6,Hue_48_Gridded,490.0,2.690196080028514,Hue,48,Gridded,yes,11,6,Periphery,0.381286321
6,Hue_48_Gridded,639.0,2.8055008581584002,Hue,48,Gridded,yes,5,3,Center,0.233726055
6,Hue_48_Gridded,561.0,2.7489628612561616,Hue,48,Gridded,yes,6,3,Center,0.233726055
6,Hue_48_Gridded,651.0,2.813580988568192,Hue,48,Gridded,yes,15,8,Periphery,0.640672861
6,Hue_48_Gridded,1253.0,3.09795107099415,Hue,48,Gridded,yes,7,4,Center,0.236269241
6,Hue_48_Gridded,481.0,2.682145076373832,Hue,48,Gridded,yes,2,1,Center,0.233726055
6,Hue_48_Gridded,457.0,2.6599162000698504,Hue,48,Gridded,yes,12,6,Periphery,0.528879396
6,Hue_48_Gridded,723.0,2.859138297294531,Hue,48,Gridded,yes,10,5,Periphery,0.315287045
6,Hue_48_Gridded,650.0,2.8129133566428557,Hue,48,Gridded,yes,13,7,Periphery,0.315287045
6,Hue_48_Gridded,3926.0,3.5939502952639875,Hue,48,Gridded,yes,14,7,Periphery,0.315287045
6,Hue_48_Gridded,587.0,2.7686381012476144,Hue,48,Gridded,yes,1,1,Center,0.233726055
6,Hue_48_Gridded,588.0,2.7693773260761385,Hue,48,Gridded,yes,8,4,Center,0.236269241
6,Hue_768_Gridded,null,null,Hue,768,Gridded,no,14,7,Periphery,0.493713477
6,Hue_768_Gridded,1126.0,3.0515383905153275,Hue,768,Gridded,yes,8,4,Center,0.064606771
6,Hue_768_Gridded,608.0,2.783903579272735,Hue,768,Gridded,yes,3,2,Center,0.267027626
6,Hue_768_Gridded,604.0,2.7810369386211318,Hue,768,Gridded,yes,10,5,Periphery,0.325429089
6,Hue_768_Gridded,616.0,2.7895807121644256,Hue,768,Gridded,yes,7,4,Center,0.26605641
6,Hue_768_Gridded,809.0,2.9079485216122722,Hue,768,Gridded,yes,12,6,Periphery,0.586234564
6,Hue_768_Gridded,829.0,2.9185545305502734,Hue,768,Gridded,yes,4,2,Center,0.267027626
6,Hue_768_Gridded,587.0,2.7686381012476144,Hue,768,Gridded,yes,15,8,Periphery,0.528866018
6,Hue_768_Gridded,828.0,2.9180303367848803,Hue,768,Gridded,yes,9,5,Periphery,0.791220559
6,Hue_768_Gridded,436.0,2.639486489268586,Hue,768,Gridded,yes,2,1,Center,0.105328546
6,Hue_768_Gridded,550.0,2.7403626894942437,Hue,768,Gridded,yes,16,8,Periphery,0.576528246
6,Hue_768_Gridded,856.0,2.932473764677153,Hue,768,Gridded,yes,6,3,Center,0.195813492
6,Hue_768_Gridded,540.0,2.7323937598229686,Hue,768,Gridded,yes,5,3,Center,0.105328546
6,Hue_768_Gridded,2858.0,3.4560622244549513,Hue,768,Gridded,yes,1,1,Center,0.228247167
6,Hue_768_Gridded,null,null,Hue,768,Gridded,no,11,6,Periphery,0.649854591
6,Hue_768_Gridded,22.0,1.3424226808222062,Hue,768,Gridded,yes,13,7,Periphery,0.791220559
6,Shape_12_Random,1776.0,3.249442961442582,Shape,12,Random,yes,12,7,Periphery,0.4464135302329824
6,Shape_12_Random,1869.0,3.271609301378832,Shape,12,Random,yes,1,5,Periphery,0.5768179179315844
6,Shape_12_Random,668.0,2.824776462475546,Shape,12,Random,yes,10,1,Center,0.2915394149873231
6,Shape_12_Random,686.0,2.8363241157067516,Shape,12,Random,yes,7,2,Center,0.24834078744766436
6,Shape_12_Random,769.0,2.885926339801431,Shape,12,Random,yes,16,1,Center,0.25040499337310285
6,Shape_12_Random,1343.0,3.1280760126687155,Shape,12,Random,yes,2,6,Periphery,0.48370170786947075
6,Shape_12_Random,1217.0,3.085290578230065,Shape,12,Random,yes,11,8,Periphery,0.42909410267200426
6,Shape_12_Random,733.0,2.8651039746411278,Shape,12,Random,yes,3,3,Center,0.248766709202736
6,Shape_12_Random,678.0,2.8312296938670634,Shape,12,Random,yes,13,7,Periphery,0.32856042318556794
6,Shape_12_Random,518.0,2.714329759745233,Shape,12,Random,yes,6,3,Center,0.13424588531299889
6,Shape_12_Random,590.0,2.7708520116421442,Shape,12,Random,yes,4,2,Center,0.25476817543193553
6,Shape_12_Random,877.0,2.9429995933660407,Shape,12,Random,yes,5,4,Center,0.2545787016131932
6,Shape_12_Random,1182.0,3.0726174765452368,Shape,12,Random,yes,8,5,Periphery,0.4614225252119441
6,Shape_12_Random,1983.0,3.2973227142053028,Shape,12,Random,yes,9,8,Periphery,0.5766464765098581
6,Shape_12_Random,1049.0,3.020775488193558,Shape,12,Random,yes,15,6,Periphery,0.4296309844802632
6,Shape_12_Random,824.0,2.9159272116971158,Shape,12,Random,yes,14,4,Center,0.12987800694130694
6,Shape_48_Gridded,424.0,2.6273658565927325,Shape,48,Gridded,yes,6,3,Center,0.233726055
6,Shape_48_Gridded,573.0,2.75815462196739,Shape,48,Gridded,yes,2,1,Center,0.105095682
6,Shape_48_Gridded,5157.0,3.712397131406715,Shape,48,Gridded,yes,16,8,Periphery,0.640672861
6,Shape_48_Gridded,500.0,2.6989700043360187,Shape,48,Gridded,yes,5,3,Center,0.105095682
6,Shape_48_Gridded,1542.0,3.188084373714938,Shape,48,Gridded,yes,13,7,Periphery,0.315287045
6,Shape_48_Gridded,786.0,2.895422546039408,Shape,48,Gridded,yes,15,8,Periphery,0.381286321
6,Shape_48_Gridded,1974.0,3.295347148333618,Shape,48,Gridded,yes,14,7,Periphery,0.376554646
6,Shape_48_Gridded,2446.0,3.3884564527002667,Shape,48,Gridded,yes,9,5,Periphery,0.376554646
6,Shape_48_Gridded,1753.0,3.243781916093795,Shape,48,Gridded,yes,11,6,Periphery,0.528879396
6,Shape_48_Gridded,1913.0,3.281714970027296,Shape,48,Gridded,yes,7,4,Center,0.236269241
6,Shape_48_Gridded,636.0,2.803457115648414,Shape,48,Gridded,yes,4,2,Center,0.236269241
6,Shape_48_Gridded,1114.0,3.04688519083771,Shape,48,Gridded,yes,3,2,Center,0.236269241
6,Shape_48_Gridded,909.0,2.9585638832219674,Shape,48,Gridded,yes,8,4,Center,0.236269241
6,Shape_48_Gridded,4849.0,3.6856521841155243,Shape,48,Gridded,yes,10,5,Periphery,0.431939178
6,Shape_48_Gridded,787.0,2.8959747323590648,Shape,48,Gridded,yes,1,1,Center,0.233726055
6,Shape_48_Gridded,3632.0,3.5601458398490475,Shape,48,Gridded,yes,12,6,Periphery,0.434697625
6,Shape_768_Gridded,2537.0,3.404320467221731,Shape,768,Gridded,yes,8,4,Center,0.232850399
6,Shape_768_Gridded,1628.0,3.2116544005531824,Shape,768,Gridded,yes,6,3,Center,0.261377723
6,Shape_768_Gridded,663.0,2.821513528404773,Shape,768,Gridded,yes,1,1,Center,0.029041969
6,Shape_768_Gridded,840.0,2.9242792860618816,Shape,768,Gridded,yes,7,4,Center,0.176288673
6,Shape_768_Gridded,null,null,Shape,768,Gridded,no,9,5,Periphery,0.382720928
6,Shape_768_Gridded,846.0,2.9273703630390235,Shape,768,Gridded,yes,2,1,Center,0.120102879
6,Shape_768_Gridded,652.0,2.81424759573192,Shape,768,Gridded,yes,4,2,Center,0.104092424
6,Shape_768_Gridded,1332.0,3.1245042248342823,Shape,768,Gridded,yes,3,2,Center,0.267027626
6,Shape_768_Gridded,721.0,2.857935264719429,Shape,768,Gridded,yes,5,3,Center,0.029041969
6,Shape_768_Gridded,5703.0,3.7561033715851058,Shape,768,Gridded,yes,14,7,Periphery,0.588438326
6,Shape_768_Gridded,3404.0,3.53198955141255,Shape,768,Gridded,yes,13,7,Periphery,0.697240861
6,Shape_768_Gridded,2864.0,3.456973013635818,Shape,768,Gridded,yes,15,8,Periphery,0.710152324
6,Shape_768_Gridded,7002.0,3.8452221064290137,Shape,768,Gridded,yes,16,8,Periphery,0.723549104
6,Shape_768_Gridded,2943.0,3.468790262099611,Shape,768,Gridded,yes,11,6,Periphery,0.375827528
6,Shape_768_Gridded,4701.0,3.6721902511882525,Shape,768,Gridded,yes,12,6,Periphery,0.528866018
6,Shape_768_Gridded,4091.9999999999995,3.6119356250401227,Shape,768,Gridded,yes,10,5,Periphery,0.581193923
6,Hue_192_Gridded,4131.0,3.6160551949765862,Hue,192,Gridded,yes,8,4,Center,0.12529399
6,Hue_192_Gridded,397.0,2.598790506763115,Hue,192,Gridded,yes,4,2,Center,0.231161215
6,Hue_192_Gridded,468.0,2.670245853074124,Hue,192,Gridded,yes,9,5,Periphery,0.452563883
6,Hue_192_Gridded,2395.0,3.379305517750582,Hue,192,Gridded,yes,3,2,Center,0.12529399
6,Hue_192_Gridded,465.0,2.667452952889954,Hue,192,Gridded,yes,2,1,Center,0.202626762
6,Hue_192_Gridded,484.0,2.6848453616444123,Hue,192,Gridded,yes,14,7,Periphery,0.452563883
6,Hue_192_Gridded,438.0,2.6414741105040997,Hue,192,Gridded,yes,13,7,Periphery,0.438970028
6,Hue_192_Gridded,418.0,2.621176281775035,Hue,192,Gridded,yes,1,1,Center,0.168330055
6,Hue_192_Gridded,502.0,2.7007037171450192,Hue,192,Gridded,yes,15,8,Periphery,0.35867929
6,Hue_192_Gridded,642.0,2.807535028068853,Hue,192,Gridded,yes,11,6,Periphery,0.585253896
6,Hue_192_Gridded,2689.0,3.4295908022233017,Hue,192,Gridded,yes,10,5,Periphery,0.280550092
6,Hue_192_Gridded,425.0,2.6283889300503116,Hue,192,Gridded,yes,7,4,Center,0.231161215
6,Hue_192_Gridded,492.0,2.69196510276736,Hue,192,Gridded,yes,12,6,Periphery,0.693483645
6,Hue_192_Gridded,474.0,2.6757783416740852,Hue,192,Gridded,yes,5,3,Center,0.168330055
6,Hue_192_Gridded,1036.0,3.0153597554092144,Hue,192,Gridded,yes,16,8,Periphery,0.693483645
6,Hue_192_Gridded,479.0,2.680335513414563,Hue,192,Gridded,yes,6,3,Center,0.202626762
6,Hue_48_Random,445.0,2.6483600109809315,Hue,48,Random,yes,5,1,Center,0.2257490447937698
6,Hue_48_Random,1550.0,3.1903316981702914,Hue,48,Random,yes,3,5,Periphery,0.42257997817374
6,Hue_48_Random,715.0,2.8543060418010806,Hue,48,Random,yes,14,4,Center,0.2730861566449883
6,Hue_48_Random,1419.0,3.151982395457474,Hue,48,Random,yes,2,8,Periphery,0.627586892023507
6,Hue_48_Random,971.0,2.9872192299080047,Hue,48,Random,yes,10,7,Periphery,0.5745117035633112
6,Hue_48_Random,479.0,2.680335513414563,Hue,48,Random,yes,4,1,Center,0.19274400665608235
6,Hue_48_Random,397.0,2.598790506763115,Hue,48,Random,yes,9,2,Center,0.18840833962371725
6,Hue_48_Random,451.0,2.6541765418779604,Hue,48,Random,yes,8,5,Periphery,0.4448325389251278
6,Hue_48_Random,498.0,2.6972293427597176,Hue,48,Random,yes,13,2,Center,0.25228111013961313
6,Hue_48_Random,514.0,2.710963118995276,Hue,48,Random,yes,7,6,Periphery,0.5991507647411672
6,Hue_48_Random,1089.0,3.037027879755775,Hue,48,Random,yes,1,8,Periphery,0.28603160799057714
6,Hue_48_Random,372.0,2.5705429398818973,Hue,48,Random,yes,6,3,Center,0.153830450583277
6,Hue_48_Random,597.0,2.775974331129369,Hue,48,Random,yes,11,3,Center,0.2107737312478814
6,Hue_48_Random,493.0,2.69284691927723,Hue,48,Random,yes,16,7,Periphery,0.41468844891265355
6,Hue_48_Random,481.0,2.682145076373832,Hue,48,Random,yes,12,6,Periphery,0.4755770044817446
6,Hue_48_Random,466.0,2.66838591669,Hue,48,Random,yes,15,4,Center,0.18843608433178524
6,Length_12_Gridded,581.0,2.7641761323903307,Length,12,Gridded,yes,7,4,Center,0.13787221
6,Length_12_Gridded,773.0,2.888179493918325,Length,12,Gridded,yes,4,2,Center,0.413616631
6,Length_12_Gridded,436.0,2.639486489268586,Length,12,Gridded,yes,11,6,Periphery,0.311429528
6,Length_12_Gridded,503.0,2.7015679850559273,Length,12,Gridded,yes,10,5,Periphery,0.311429528
6,Length_12_Gridded,914.0,2.960946195733831,Length,12,Gridded,yes,2,1,Center,0.413616631
6,Length_12_Gridded,714.0,2.8536982117761744,Length,12,Gridded,yes,8,4,Center,0.311429528
6,Length_12_Gridded,454.0,2.6570558528571038,Length,12,Gridded,yes,3,2,Center,0.13787221
6,Length_12_Gridded,675.0,2.829303772831025,Length,12,Gridded,yes,6,3,Center,0.413616631
6,Length_12_Gridded,885.0,2.9469432706978256,Length,12,Gridded,yes,12,6,Periphery,0.499057433
6,Length_12_Gridded,819.0,2.9132839017604186,Length,12,Gridded,yes,14,7,Periphery,0.499057433
6,Length_12_Gridded,607.0,2.7831886910752575,Length,12,Gridded,yes,16,8,Periphery,0.311429528
6,Length_12_Gridded,1634.0,3.2132520521963968,Length,12,Gridded,yes,15,8,Periphery,0.499057433
6,Length_12_Gridded,487.0,2.6875289612146345,Length,12,Gridded,yes,13,7,Periphery,0.13787221
6,Length_12_Gridded,706.0,2.8488047010518036,Length,12,Gridded,yes,1,1,Center,0.311429528
6,Length_12_Gridded,733.0,2.8651039746411278,Length,12,Gridded,yes,5,3,Center,0.499057433
6,Length_12_Gridded,2824.0,3.450864692379766,Length,12,Gridded,yes,9,5,Periphery,0.499057433
6,Hue_192_Random,484.0,2.6848453616444123,Hue,192,Random,yes,9,8,Periphery,0.5533475173225693
6,Hue_192_Random,452.0,2.655138434811382,Hue,192,Random,yes,4,6,Periphery,0.6998779869380178
6,Hue_192_Random,5342.0,3.727703883685354,Hue,192,Random,yes,7,7,Periphery,0.45617588764993516
6,Hue_192_Random,514.0,2.710963118995276,Hue,192,Random,yes,5,2,Center,0.21865749108666271
6,Hue_192_Random,588.0,2.7693773260761385,Hue,192,Random,yes,16,5,Periphery,0.5113441984945444
6,Hue_192_Random,451.0,2.6541765418779604,Hue,192,Random,yes,6,1,Center,0.24221186977803882
6,Hue_192_Random,3331.0,3.522574632691177,Hue,192,Random,yes,3,8,Periphery,0.6823390569744362
6,Hue_192_Random,547.0,2.737987326333431,Hue,192,Random,yes,1,5,Periphery,0.4948364125186796
6,Hue_192_Random,464.0,2.6665179805548807,Hue,192,Random,yes,12,3,Center,0.06621208467248708
6,Hue_192_Random,504.0,2.7024305364455254,Hue,192,Random,yes,8,7,Periphery,0.3434997907784847
6,Hue_192_Random,666.0,2.823474229170301,Hue,192,Random,yes,10,4,Center,0.24948673522456136
6,Hue_192_Random,474.0,2.6757783416740852,Hue,192,Random,yes,15,4,Center,0.2416110875310049
6,Hue_192_Random,485.0,2.6857417386022635,Hue,192,Random,yes,11,3,Center,0.2060459847691097
6,Hue_192_Random,492.0,2.69196510276736,Hue,192,Random,yes,14,2,Center,0.20504600103737733
6,Hue_192_Random,466.0,2.66838591669,Hue,192,Random,yes,2,6,Periphery,0.6865074856961952
6,Hue_192_Random,529.0,2.7234556720351857,Hue,192,Random,yes,13,1,Center,0.26563949582500757
6,Length_768_Random,5967.0,3.775756037844098,Length,768,Random,yes,6,7,Periphery,0.5109149447092456
6,Length_768_Random,11401.0,4.056942945672877,Length,768,Random,yes,9,4,Center,0.2540068512897407
6,Length_768_Random,1085.0,3.0354297381845483,Length,768,Random,yes,3,1,Center,0.19151950939953827
6,Length_768_Random,766.0,2.884228769632604,Length,768,Random,yes,15,2,Center,0.020086799884765718
6,Length_768_Random,825.0,2.916453948549925,Length,768,Random,yes,2,4,Center,0.11158587313349465
6,Length_768_Random,3880.0,3.5888317255942073,Length,768,Random,yes,11,8,Periphery,0.5977528423858308
6,Length_768_Random,8599.0,3.93444794894897,Length,768,Random,yes,1,1,Center,0.15093980517626263
6,Length_768_Random,7004.0,3.8453461374114086,Length,768,Random,yes,7,6,Periphery,0.6993270531878681
6,Length_768_Random,1027.0,3.0115704435972783,Length,768,Random,yes,10,2,Center,0.1524392494087626
6,Length_768_Random,2017.0,3.3047058982127653,Length,768,Random,yes,14,3,Center,0.16740461806446005
6,Length_768_Random,19209.0,4.28350475654383,Length,768,Random,yes,16,7,Periphery,0.46793488935688715
6,Length_768_Random,7423.0,3.8705794605526846,Length,768,Random,yes,4,5,Periphery,0.43398187148378664
6,Length_768_Random,16091.999999999998,4.2066100238992234,Length,768,Random,yes,5,6,Periphery,0.5695695141878472
6,Length_768_Random,10016.0,4.000694315866355,Length,768,Random,yes,12,5,Periphery,0.6245656049518726
6,Length_768_Random,null,null,Length,768,Random,no,8,8,Periphery,0.41959169888871667
6,Length_768_Random,null,null,Length,768,Random,no,13,3,Center,0.19662379628232665
6,Hue_12_Gridded,493.0,2.69284691927723,Hue,12,Gridded,yes,3,2,Center,0.13787221
6,Hue_12_Gridded,757.0,2.8790958795000727,Hue,12,Gridded,yes,10,5,Periphery,0.311429528
6,Hue_12_Gridded,541.0,2.7331972651065692,Hue,12,Gridded,yes,16,8,Periphery,0.499057433
6,Hue_12_Gridded,525.0,2.720159303405957,Hue,12,Gridded,yes,6,3,Center,0.499057433
6,Hue_12_Gridded,425.0,2.6283889300503116,Hue,12,Gridded,yes,2,1,Center,0.311429528
6,Hue_12_Gridded,450.0,2.6532125137753435,Hue,12,Gridded,yes,13,7,Periphery,0.311429528
6,Hue_12_Gridded,417.0,2.6201360549737576,Hue,12,Gridded,yes,1,1,Center,0.499057433
6,Hue_12_Gridded,459.0,2.661812685537261,Hue,12,Gridded,yes,5,3,Center,0.311429528
6,Hue_12_Gridded,487.0,2.6875289612146345,Hue,12,Gridded,yes,7,4,Center,0.311429528
6,Hue_12_Gridded,498.0,2.6972293427597176,Hue,12,Gridded,yes,9,5,Periphery,0.311429528
6,Hue_12_Gridded,473.0,2.6748611407378116,Hue,12,Gridded,yes,15,8,Periphery,0.413616631
6,Hue_12_Gridded,471.0,2.673020907128896,Hue,12,Gridded,yes,8,4,Center,0.311429528
6,Hue_12_Gridded,539.0,2.7315887651867388,Hue,12,Gridded,yes,11,6,Periphery,0.311429528
6,Hue_12_Gridded,589.0,2.7701152947871015,Hue,12,Gridded,yes,14,7,Periphery,0.499057433
6,Hue_12_Gridded,489.0,2.6893088591236203,Hue,12,Gridded,yes,12,6,Periphery,0.311429528
6,Hue_12_Gridded,672.0,2.8273692730538253,Hue,12,Gridded,yes,4,2,Center,0.311429528
6,Shape_12_Gridded,959.0,2.9818186071706636,Shape,12,Gridded,yes,9,5,Periphery,0.499057433
6,Shape_12_Gridded,541.0,2.7331972651065692,Shape,12,Gridded,yes,6,3,Center,0.13787221
6,Shape_12_Gridded,645.0,2.8095597146352675,Shape,12,Gridded,yes,1,1,Center,0.311429528
6,Shape_12_Gridded,691.0,2.8394780473741985,Shape,12,Gridded,yes,11,6,Periphery,0.311429528
6,Shape_12_Gridded,678.0,2.8312296938670634,Shape,12,Gridded,yes,10,5,Periphery,0.311429528
6,Shape_12_Gridded,767.0,2.884795363948981,Shape,12,Gridded,yes,3,2,Center,0.413616631
6,Shape_12_Gridded,611.0,2.786041210242554,Shape,12,Gridded,yes,8,4,Center,0.13787221
6,Shape_12_Gridded,2221.0,3.346548558548474,Shape,12,Gridded,yes,2,1,Center,0.499057433
6,Shape_12_Gridded,2275.0,3.3569814009931314,Shape,12,Gridded,yes,14,7,Periphery,0.499057433
6,Shape_12_Gridded,1301.0,3.1142772965615864,Shape,12,Gridded,yes,7,4,Center,0.311429528
6,Shape_12_Gridded,1918.0,3.282848602834645,Shape,12,Gridded,yes,16,8,Periphery,0.499057433
6,Shape_12_Gridded,762.0,2.8819549713396007,Shape,12,Gridded,yes,12,6,Periphery,0.311429528
6,Shape_12_Gridded,2239.0,3.3500540935790304,Shape,12,Gridded,yes,5,3,Center,0.499057433
6,Shape_12_Gridded,521.0,2.7168377232995247,Shape,12,Gridded,yes,15,8,Periphery,0.13787221
6,Shape_12_Gridded,1093.0,3.038620161949703,Shape,12,Gridded,yes,4,2,Center,0.413616631
6,Shape_12_Gridded,649.0,2.812244696800369,Shape,12,Gridded,yes,13,7,Periphery,0.311429528
6,Shape_192_Gridded,2721.0,3.4347285417797577,Shape,192,Gridded,yes,16,8,Periphery,0.47886465
6,Shape_192_Gridded,3878.0,3.5886078047426864,Shape,192,Gridded,yes,11,6,Periphery,0.408117757
6,Shape_192_Gridded,9834.0,3.992730203954143,Shape,192,Gridded,yes,14,7,Periphery,0.453039662
6,Shape_192_Gridded,1508.0,3.178401341533755,Shape,192,Gridded,yes,6,3,Center,0.056110018
6,Shape_192_Gridded,1185.0,3.0737183503461227,Shape,192,Gridded,yes,8,4,Center,0.201987831
6,Shape_192_Gridded,1610.0,3.2068258760318495,Shape,192,Gridded,yes,13,7,Periphery,0.280550092
6,Shape_192_Gridded,3314.0,3.520352504083318,Shape,192,Gridded,yes,12,6,Periphery,0.47886465
6,Shape_192_Gridded,2739.0,3.4375920322539613,Shape,192,Gridded,yes,2,1,Center,0.2315337
6,Shape_192_Gridded,837.0,2.92272545799326,Shape,192,Gridded,yes,4,2,Center,0.231161215
6,Shape_192_Gridded,5295.0,3.7238659644435037,Shape,192,Gridded,yes,7,4,Center,0.201987831
6,Shape_192_Gridded,700.0,2.845098040014257,Shape,192,Gridded,yes,1,1,Center,0.125637405
6,Shape_192_Gridded,783.0,2.8937617620579434,Shape,192,Gridded,yes,3,2,Center,0.12529399
6,Shape_192_Gridded,9563.0,3.9805941557762203,Shape,192,Gridded,yes,10,5,Periphery,0.517683479
6,Shape_192_Gridded,636.0,2.803457115648414,Shape,192,Gridded,yes,5,3,Center,0.125637405
6,Shape_192_Gridded,2968.0,3.4724638966069894,Shape,192,Gridded,yes,9,5,Periphery,0.452563883
6,Shape_192_Gridded,2861.0,3.4565178578052627,Shape,192,Gridded,yes,15,8,Periphery,0.516433522
6,Length_192_Random,1925.0,3.2844307338445193,Length,192,Random,yes,1,7,Periphery,0.5448225596251761
6,Length_192_Random,5903.0,3.7710727832211948,Length,192,Random,yes,6,6,Periphery,0.6985904578219351
6,Length_192_Random,4081.0000000000005,3.610766594773271,Length,192,Random,yes,7,5,Periphery,0.4572588204527786
6,Length_192_Random,1198.0,3.0784568180532927,Length,192,Random,yes,9,3,Center,0.00997435588242676
6,Length_192_Random,807.0,2.90687353472207,Length,192,Random,yes,4,8,Periphery,0.302299220326139
6,Length_192_Random,1195.0,3.0773679052841563,Length,192,Random,yes,12,2,Center,0.10201519317352092
6,Length_192_Random,2524.0,3.402089350572097,Length,192,Random,yes,8,5,Periphery,0.41665829464383175
6,Length_192_Random,1315.0,3.1189257528257768,Length,192,Random,yes,11,4,Center,0.20761138312732838
6,Length_192_Random,673.0,2.828015064223977,Length,192,Random,yes,3,1,Center,0.2666393975894183
6,Length_192_Random,588.0,2.7693773260761385,Length,192,Random,yes,14,1,Center,0.13415930160458758
6,Length_192_Random,4840.0,3.6848453616444123,Length,192,Random,yes,5,6,Periphery,0.726340810911742
6,Length_192_Random,902.0,2.9552065375419416,Length,192,Random,yes,2,7,Periphery,0.38926349119618986
6,Length_192_Random,2051.0,3.3119656603683665,Length,192,Random,yes,16,8,Periphery,0.5280640390860657
6,Length_192_Random,609.0,2.784617292632875,Length,192,Random,yes,10,2,Center,0.20876920902548038
6,Length_192_Random,821.0,2.9143431571194407,Length,192,Random,yes,13,3,Center,0.19531077828264756
6,Length_192_Random,667.0,2.824125833916549,Length,192,Random,yes,15,4,Center,0.10872112622361935
6,Hue_12_Random,472.0,2.673941998634088,Hue,12,Random,yes,12,1,Center,0.25523562610501255
6,Hue_12_Random,518.0,2.714329759745233,Hue,12,Random,yes,11,7,Periphery,0.4278885934915162
6,Hue_12_Random,433.0,2.6364878963533656,Hue,12,Random,yes,7,2,Center,0.1547115515202082
6,Hue_12_Random,517.0,2.7134905430939424,Hue,12,Random,yes,3,4,Center,0.2914729021027182
6,Hue_12_Random,446.0,2.649334858712142,Hue,12,Random,yes,8,1,Center,0.15919362734342732
6,Hue_12_Random,575.0,2.7596678446896306,Hue,12,Random,yes,2,5,Periphery,0.5038905529284967
6,Hue_12_Random,584.0,2.7664128471123997,Hue,12,Random,yes,10,6,Periphery,0.3536048333611076
6,Hue_12_Random,817.0,2.9122220565324155,Hue,12,Random,yes,15,2,Center,0.1238600518732325
6,Hue_12_Random,550.0,2.7403626894942437,Hue,12,Random,yes,1,8,Periphery,0.5842376047685275
6,Hue_12_Random,624.0,2.795184589682424,Hue,12,Random,yes,5,4,Center,0.27191409687691037
6,Hue_12_Random,491.0,2.6910814921229687,Hue,12,Random,yes,14,5,Periphery,0.4856520726398047
6,Hue_12_Random,584.0,2.7664128471123997,Hue,12,Random,yes,9,6,Periphery,0.38861046613488653
6,Hue_12_Random,6162.0,3.7897216939809217,Hue,12,Random,yes,13,7,Periphery,0.3403108595551982
6,Hue_12_Random,622.0,2.7937903846908188,Hue,12,Random,yes,6,3,Center,0.21501115607538432
6,Hue_12_Random,566.0,2.7528164311882715,Hue,12,Random,yes,16,8,Periphery,0.5256914466974465
6,Hue_12_Random,670.0,2.8260748027008264,Hue,12,Random,yes,4,3,Center,0.16077910786798064
6,Shape_768_Random,1263.0,3.101403350555331,Shape,768,Random,yes,11,2,Center,0.16707104021024993
6,Shape_768_Random,7143.0,3.8538806501245424,Shape,768,Random,yes,3,8,Periphery,0.545490647061175
6,Shape_768_Random,2532.0,3.4034637013453173,Shape,768,Random,yes,9,5,Periphery,0.4717277048601035
6,Shape_768_Random,9385.0,3.9724342769573653,Shape,768,Random,yes,7,8,Periphery,0.609330001160519
6,Shape_768_Random,1863.0,3.2702128548962426,Shape,768,Random,yes,15,4,Center,0.24001318529167254
6,Shape_768_Random,710.0,2.8512583487190755,Shape,768,Random,yes,6,3,Center,0.04251904765000064
6,Shape_768_Random,null,null,Shape,768,Random,no,16,6,Periphery,0.5299736898965839
6,Shape_768_Random,1288.0,3.1099158630237933,Shape,768,Random,yes,14,4,Center,0.1578487746099684
6,Shape_768_Random,5549.0,3.744214724814166,Shape,768,Random,yes,8,5,Periphery,0.38695593438284553
6,Shape_768_Random,5561.0,3.7451528950769,Shape,768,Random,yes,2,7,Periphery,0.5750878485043665
6,Shape_768_Random,8198.0,3.913707913980483,Shape,768,Random,yes,1,1,Center,0.22589931868259944
6,Shape_768_Random,22478.0,4.351757666879034,Shape,768,Random,yes,5,7,Periphery,0.48033561482884674
6,Shape_768_Random,1270.0,3.103803720955957,Shape,768,Random,yes,13,3,Center,0.23266512335064468
6,Shape_768_Random,2194.0,3.3412366232386925,Shape,768,Random,yes,10,1,Center,0.2289243916308905
6,Shape_768_Random,2543.0,3.405346360175709,Shape,768,Random,yes,4,6,Periphery,0.6324682609873481
6,Shape_768_Random,43.0,1.6334684555795864,Shape,768,Random,yes,12,2,Center,0.24391327554983352
6,Length_192_Gridded,5029.0,3.7014816356209272,Length,192,Gridded,yes,9,5,Periphery,0.517683479
6,Length_192_Gridded,701.0,2.8457180179666586,Length,192,Gridded,yes,6,3,Center,0.168330055
6,Length_192_Gridded,780.0,2.8920946026904804,Length,192,Gridded,yes,1,1,Center,0.056110018
6,Length_192_Gridded,1020.0,3.0086001717619175,Length,192,Gridded,yes,10,5,Periphery,0.302517973
6,Length_192_Gridded,552.0,2.741939077729199,Length,192,Gridded,yes,4,2,Center,0.12529399
6,Length_192_Gridded,2216.0,3.345569756056392,Length,192,Gridded,yes,13,7,Periphery,0.504990166
6,Length_192_Gridded,2290.0,3.359835482339888,Length,192,Gridded,yes,16,8,Periphery,0.47886465
6,Length_192_Gridded,1035.0,3.0149403497929366,Length,192,Gridded,yes,2,1,Center,0.2315337
6,Length_192_Gridded,1075.0,3.031408464251624,Length,192,Gridded,yes,5,3,Center,0.2315337
6,Length_192_Gridded,2562.0,3.4085791254086675,Length,192,Gridded,yes,14,7,Periphery,0.452182898
6,Length_192_Gridded,766.0,2.884228769632604,Length,192,Gridded,yes,8,4,Center,0.231161215
6,Length_192_Gridded,1764.0,3.246498580795801,Length,192,Gridded,yes,15,8,Periphery,0.551917433
6,Length_192_Gridded,749.0,2.8744818176994666,Length,192,Gridded,yes,11,6,Periphery,0.280088974
6,Length_192_Gridded,601.0,2.7788744720027396,Length,192,Gridded,yes,3,2,Center,0.12529399
6,Length_192_Gridded,3531.0,3.5478977175630972,Length,192,Gridded,yes,12,6,Periphery,0.626469953
6,Length_192_Gridded,1057.0,3.024074987307426,Length,192,Gridded,yes,7,4,Center,0.12529399
6,Length_768_Gridded,1981.0,3.296884475538547,Length,768,Gridded,yes,10,5,Periphery,0.438747836
6,Length_768_Gridded,1561.0,3.1934029030624176,Length,768,Gridded,yes,9,5,Periphery,0.438747836
6,Length_768_Gridded,740.0,2.8692317197309762,Length,768,Gridded,yes,8,4,Center,0.104092424
6,Length_768_Gridded,1924.0,3.284205067701794,Length,768,Gridded,yes,12,6,Periphery,0.594956479
6,Length_768_Gridded,3215.0,3.5071809772602407,Length,768,Gridded,yes,2,1,Center,0.212141749
6,Length_768_Gridded,786.0,2.895422546039408,Length,768,Gridded,yes,6,3,Center,0.233775017
6,Length_768_Gridded,2274.0,3.356790460351716,Length,768,Gridded,yes,14,7,Periphery,0.407252836
6,Length_768_Gridded,770.0,2.886490725172482,Length,768,Gridded,yes,3,2,Center,0.232850399
6,Length_768_Gridded,1730.0,3.2380461031287955,Length,768,Gridded,yes,1,1,Center,0.233775017
6,Length_768_Gridded,956.0,2.9804578922761,Length,768,Gridded,yes,5,3,Center,0.261377723
6,Length_768_Gridded,3083.0,3.488973524726508,Length,768,Gridded,yes,11,6,Periphery,0.594956479
6,Length_768_Gridded,1460.0,3.164352855784437,Length,768,Gridded,yes,4,2,Center,0.176288673
6,Length_768_Gridded,1228.0,3.089198366805149,Length,768,Gridded,yes,7,4,Center,0.144315729
6,Length_768_Gridded,4272.0,3.6306312440205,Length,768,Gridded,yes,15,8,Periphery,0.687219014
6,Length_768_Gridded,1336.0,3.125806458139527,Length,768,Gridded,yes,13,7,Periphery,0.315985639
6,Length_768_Gridded,218.0,2.3384564936046046,Length,768,Gridded,yes,16,8,Periphery,0.381252592
6,Length_12_Random,626.0,2.7965743332104296,Length,12,Random,yes,3,5,Periphery,0.4092691468358003
6,Length_12_Random,881.0,2.9449759084120477,Length,12,Random,yes,13,5,Periphery,0.42898733184544285
6,Length_12_Random,798.0,2.9020028913507296,Length,12,Random,yes,10,6,Periphery,0.6847962550452309
6,Length_12_Random,481.0,2.682145076373832,Length,12,Random,yes,4,2,Center,0.19326421622996026
6,Length_12_Random,729.0,2.8627275283179747,Length,12,Random,yes,16,7,Periphery,0.39296460029341074
6,Length_12_Random,654.0,2.815577748324267,Length,12,Random,yes,6,2,Center,0.06987595208876365
6,Length_12_Random,1000.0,3.0,Length,12,Random,yes,11,8,Periphery,0.5603043252087377
6,Length_12_Random,549.0,2.739572344450092,Length,12,Random,yes,1,1,Center,0.24438452081831752
6,Length_12_Random,594.0,2.7737864449811935,Length,12,Random,yes,2,1,Center,0.3279478531664781
6,Length_12_Random,695.0,2.8419848045901137,Length,12,Random,yes,7,4,Center,0.23434890339316633
6,Length_12_Random,547.0,2.737987326333431,Length,12,Random,yes,14,3,Center,0.21333014752597795
6,Length_12_Random,855.0,2.931966114728173,Length,12,Random,yes,15,7,Periphery,0.445992717271588
6,Length_12_Random,1329.0,3.123524980942732,Length,12,Random,yes,8,8,Periphery,0.499148724473536
6,Length_12_Random,null,null,Length,12,Random,no,12,6,Periphery,0.6150518345941879
6,Length_12_Random,814.0,2.910624404889201,Length,12,Random,yes,9,3,Center,0.15894752195766151
6,Length_12_Random,734.0,2.8656960599160706,Length,12,Random,yes,5,4,Center,0.0858538411622373
6,Shape_48_Random,850.0,2.929418925714293,Shape,48,Random,yes,3,2,Center,0.14644078541112276
6,Shape_48_Random,1485.0,3.171726453653231,Shape,48,Random,yes,10,6,Periphery,0.4318587427913497
6,Shape_48_Random,1073.0,3.030599721965951,Shape,48,Random,yes,5,4,Center,0.10355336853647153
6,Shape_48_Random,1836.0,3.2638726768652235,Shape,48,Random,yes,8,6,Periphery,0.5717423842276053
6,Shape_48_Random,1253.0,3.09795107099415,Shape,48,Random,yes,4,3,Center,0.17083789990505444
6,Shape_48_Random,1150.0,3.060697840353612,Shape,48,Random,yes,2,4,Center,0.22682123370019042
6,Shape_48_Random,2991.0,3.475816413031318,Shape,48,Random,yes,12,8,Periphery,0.48462895694216135
6,Shape_48_Random,2982.0,3.474507639116976,Shape,48,Random,yes,11,7,Periphery,0.3601225230561919
6,Shape_48_Random,1503.0,3.176958980586908,Shape,48,Random,yes,1,5,Periphery,0.35916477641340244
6,Shape_48_Random,1400.0,3.146128035678238,Shape,48,Random,yes,16,7,Periphery,0.33009461677197194
6,Shape_48_Random,871.0,2.9400181550076634,Shape,48,Random,yes,7,1,Center,0.1877092458384138
6,Shape_48_Random,3917.0,3.592953571547866,Shape,48,Random,yes,9,8,Periphery,0.4466580516043555
6,Shape_48_Random,745.0,2.8721562727482928,Shape,48,Random,yes,14,1,Center,0.18810818595237255
6,Shape_48_Random,1484.0,3.171433900943008,Shape,48,Random,yes,13,3,Center,0.24303439919154515
6,Shape_48_Random,978.0,2.9903388547876015,Shape,48,Random,yes,15,2,Center,0.12930716900388517
6,Shape_48_Random,2295.0,3.36078268987328,Shape,48,Random,yes,6,5,Periphery,0.4759303662195809
6,Length_48_Random,824.0,2.9159272116971158,Length,48,Random,yes,1,8,Periphery,0.40222398167518675
6,Length_48_Random,1341.0,3.127428777851599,Length,48,Random,yes,7,7,Periphery,0.525780532509231
6,Length_48_Random,2473.0,3.3932241163612975,Length,48,Random,yes,16,2,Center,0.19196470041914615
6,Length_48_Random,2176.0,3.3376588910261424,Length,48,Random,yes,14,5,Periphery,0.5574763855710713
6,Length_48_Random,955.0,2.9800033715837464,Length,48,Random,yes,4,1,Center,0.15785904246480728
6,Length_48_Random,4793.0,3.680607428991788,Length,48,Random,yes,10,5,Periphery,0.6829877289186748
6,Length_48_Random,768.0,2.885361220031512,Length,48,Random,yes,5,2,Center,0.19090741443353942
6,Length_48_Random,1707.0,3.2322335211147335,Length,48,Random,yes,12,3,Center,0.17793985519851588
6,Length_48_Random,1250.0,3.0969100130080562,Length,48,Random,yes,9,6,Periphery,0.4229169953503825
6,Length_48_Random,757.0,2.8790958795000727,Length,48,Random,yes,15,4,Center,0.155132279443074
6,Length_48_Random,1284.0,3.1085650237328344,Length,48,Random,yes,8,7,Periphery,0.36062881216978976
6,Length_48_Random,778.0,2.890979596989689,Length,48,Random,yes,2,3,Center,0.18441224197930262
6,Length_48_Random,784.0,2.8943160626844384,Length,48,Random,yes,11,1,Center,0.195102412407092
6,Length_48_Random,1139.0,3.0565237240791006,Length,48,Random,yes,3,8,Periphery,0.3115173970551363
6,Length_48_Random,2567.0,3.4094258686714434,Length,48,Random,yes,6,6,Periphery,0.5737865815946075
6,Length_48_Random,1166.0,3.0666985504229953,Length,48,Random,yes,13,4,Center,0.1990350950498069
6,Hue_768_Random,745.0,2.8721562727482928,Hue,768,Random,yes,4,6,Periphery,0.34678981778489454
6,Hue_768_Random,1435.0,3.156851901070011,Hue,768,Random,yes,15,4,Center,0.11787192650152489
6,Hue_768_Random,802.0,2.9041743682841634,Hue,768,Random,yes,5,6,Periphery,0.5719365997048286
6,Hue_768_Random,1838.0,3.2643455070500926,Hue,768,Random,yes,9,1,Center,0.25333166534560103
6,Hue_768_Random,706.0,2.8488047010518036,Hue,768,Random,yes,3,7,Periphery,0.37737338485820887
6,Hue_768_Random,525.0,2.720159303405957,Hue,768,Random,yes,1,5,Periphery,0.56845287292339
6,Hue_768_Random,769.0,2.885926339801431,Hue,768,Random,yes,12,4,Center,0.18846956015138255
6,Hue_768_Random,917.0,2.962369335670021,Hue,768,Random,yes,14,3,Center,0.10001345718329056
6,Hue_768_Random,706.0,2.8488047010518036,Hue,768,Random,yes,7,8,Periphery,0.5589330157954574
6,Hue_768_Random,2261.0,3.35430056234536,Hue,768,Random,yes,16,7,Periphery,0.5536239592655401
6,Hue_768_Random,556.0,2.7450747915820575,Hue,768,Random,yes,6,8,Periphery,0.45657952893170606
6,Hue_768_Random,665.0,2.8228216453031045,Hue,768,Random,yes,11,1,Center,0.27259113091445447
6,Hue_768_Random,590.0,2.7708520116421442,Hue,768,Random,yes,2,5,Periphery,0.43109610333164766
6,Hue_768_Random,667.0,2.824125833916549,Hue,768,Random,yes,10,3,Center,0.23047993091693164
6,Hue_768_Random,821.0,2.9143431571194407,Hue,768,Random,yes,13,2,Center,0.17673681759148183
6,Hue_768_Random,860.0,2.934498451243568,Hue,768,Random,yes,8,2,Center,0.13436762003652925
6,Shape_192_Random,788.0,2.8965262174895554,Shape,192,Random,yes,12,4,Center,0.11792962850936155
6,Shape_192_Random,2929.0,3.4667193716815987,Shape,192,Random,yes,4,7,Periphery,0.4471149982108483
6,Shape_192_Random,5097.0,3.707314633588708,Shape,192,Random,yes,9,6,Periphery,0.4066316562780101
6,Shape_192_Random,7295.0,3.86302529622947,Shape,192,Random,yes,13,4,Center,0.26205074476368917
6,Shape_192_Random,3571.0,3.552789850192782,Shape,192,Random,yes,7,2,Center,0.2623602986900605
6,Shape_192_Random,1806.0,3.256717745977487,Shape,192,Random,yes,5,2,Center,0.24938473628530844
6,Shape_192_Random,1147.0,3.0595634179012676,Shape,192,Random,yes,6,5,Periphery,0.3157409401001144
6,Shape_192_Random,2873.0,3.4583356259919475,Shape,192,Random,yes,10,8,Periphery,0.5182503996604114
6,Shape_192_Random,3758.0,3.5749567757645067,Shape,192,Random,yes,3,5,Periphery,0.5054465227239521
6,Shape_192_Random,1489.0,3.1728946977521764,Shape,192,Random,yes,14,3,Center,0.20739067288566174
6,Shape_192_Random,796.0,2.900913067737669,Shape,192,Random,yes,11,1,Center,0.1344570781735875
6,Shape_192_Random,6852.0,3.835817354293473,Shape,192,Random,yes,16,3,Center,0.23246252053496202
6,Shape_192_Random,3524.0,3.54703589974001,Shape,192,Random,yes,2,7,Periphery,0.46667156057234116
6,Shape_192_Random,2048.0,3.3113299523037933,Shape,192,Random,yes,1,8,Periphery,0.40682588060928293
6,Shape_192_Random,1624.0,3.2105860249051563,Shape,192,Random,yes,15,1,Center,0.261582801103808
6,Shape_192_Random,4921.0,3.6920533650340808,Shape,192,Random,yes,8,6,Periphery,0.5815784639067708
